Folder: scg-plotting-scripts/FTIR

Note: README.md
# scg-plotting-scripts

Plotting scripts + sample data for many of the instruments in the SCG labs.

File: silica_fume.csv
Created as New Dataset,Sample 004 By whitece Date Friday, December 06 2024
cm-1,%T
4000.00,98.53
3988.00,98.52
3976.00,98.46
3964.00,98.54
3952.00,98.57
3940.00,98.53
3928.00,98.53
3916.00,98.39
3904.00,98.53
3892.00,98.43
3880.00,98.46
3868.00,98.40
3856.00,98.46
3844.00,98.39
3832.00,98.45
3820.00,98.39
3808.00,98.46
3796.00,98.41
3784.00,98.42
3772.00,98.35
3760.00,98.28
3748.00,98.36
3736.00,98.37
3724.00,98.38
3712.00,98.26
3700.00,98.26
3688.00,98.22
3676.00,98.15
3664.00,97.89
3652.00,97.99
3640.00,97.94
3628.00,98.00
3616.00,98.09
3604.00,97.94
3592.00,97.99
3580.00,97.82
3568.00,97.98
3556.00,97.87
3544.00,97.82
3532.00,97.78
3520.00,97.79
3508.00,97.81
3496.00,97.65
3484.00,97.75
3472.00,97.66
3460.00,97.79
3448.00,97.62
3436.00,97.68
3424.00,97.60
3412.00,97.70
3400.00,97.66
3388.00,97.63
3376.00,97.63
3364.00,97.68
3352.00,97.55
3340.00,97.58
3328.00,97.56
3316.00,97.65
3304.00,97.53
3292.00,97.65
3280.00,97.52
3268.00,97.60
3256.00,97.62
3244.00,97.59
3232.00,97.58
3220.00,97.61
3208.00,97.56
3196.00,97.61
3184.00,97.72
3172.00,97.66
3160.00,97.60
3148.00,97.73
3136.00,97.64
3124.00,97.69
3112.00,97.72
3100.00,97.72
3088.00,97.68
3076.00,97.69
3064.00,97.71
3052.00,97.76
3040.00,97.74
3028.00,97.80
3016.00,97.74
3004.00,97.77
2992.00,97.78
2980.00,97.80
2968.00,97.86
2956.00,97.83
2944.00,97.83
2932.00,97.88
2920.00,97.89
2908.00,97.88
2896.00,97.84
2884.00,97.82
2872.00,97.91
2860.00,97.94
2848.00,97.91
2836.00,97.82
2824.00,97.81
2812.00,97.88
2800.00,97.90
2788.00,97.87
2776.00,97.95
2764.00,97.90
2752.00,97.88
2740.00,97.85
2728.00,97.86
2716.00,97.86
2704.00,97.87
2692.00,97.85
2680.00,97.89
2668.00,97.86
2656.00,97.71
2644.00,97.67
2632.00,97.72
2620.00,97.65
2608.00,97.75
2596.00,97.77
2584.00,97.73
2572.00,97.76
2560.00,97.79
2548.00,97.80
2536.00,97.84
2524.00,97.86
2512.00,97.87
2500.00,97.88
2488.00,97.86
2476.00,97.76
2464.00,97.86
2452.00,97.81
2440.00,97.78
2428.00,97.81
2416.00,97.87
2404.00,97.92
2392.00,97.92
2380.00,97.97
2368.00,97.85
2356.00,97.82
2344.00,97.81
2332.00,97.71
2320.00,97.41
2308.00,97.59
2296.00,97.52
2284.00,97.42
2272.00,97.47
2260.00,97.49
2248.00,97.57
2236.00,97.61
2224.00,97.57
2212.00,97.52
2200.00,97.51
2188.00,97.47
2176.00,97.67
2164.00,97.04
2152.00,98.22
2140.00,98.01
2128.00,98.10
2116.00,97.62
2104.00,97.55
2092.00,97.60
2080.00,97.43
2068.00,97.43
2056.00,97.32
2044.00,97.22
2032.00,97.38
2020.00,97.29
2008.00,97.22
1996.00,97.22
1984.00,96.78
1972.00,97.31
1960.00,97.44
1948.00,97.43
1936.00,97.36
1924.00,97.16
1912.00,97.13
1900.00,97.06
1888.00,96.93
1876.00,96.88
1864.00,96.81
1852.00,96.99
1840.00,97.01
1828.00,97.15
1816.00,97.21
1804.00,97.24
1792.00,97.25
1780.00,97.26
1768.00,97.23
1756.00,97.19
1744.00,97.11
1732.00,97.08
1720.00,96.98
1708.00,96.88
1696.00,96.79
1684.00,96.69
1672.00,96.58
1660.00,96.44
1648.00,96.31
1636.00,96.12
1624.00,95.97
1612.00,95.99
1600.00,96.09
1588.00,96.16
1576.00,96.19
1564.00,96.25
1552.00,96.26
1540.00,96.29
1528.00,96.29
1516.00,96.32
1504.00,96.29
1492.00,96.31
1480.00,96.29
1468.00,96.31
1456.00,96.27
1444.00,96.26
1432.00,96.26
1420.00,96.23
1408.00,96.23
1396.00,96.20
1384.00,96.13
1372.00,96.09
1360.00,96.04
1348.00,95.96
1336.00,95.86
1324.00,95.72
1312.00,95.47
1300.00,95.07
1288.00,94.41
1276.00,93.19
1264.00,90.73
1252.00,86.85
1240.00,82.61
1228.00,78.39
1216.00,74.51
1204.00,71.18
1192.00,68.38
1180.00,65.79
1168.00,63.24
1156.00,60.53
1144.00,56.92
1132.00,50.78
1120.00,40.40
1108.00,29.46
1096.00,22.61
1084.00,18.42
1072.00,15.50
1060.00,13.39
1048.00,11.86
1036.00,11.22
1024.00,12.29
1012.00,17.04
1000.00,27.42
988.00,40.78
976.00,51.91
964.00,60.97
952.00,67.96
940.00,73.42
928.00,77.60
916.00,80.72
904.00,82.97
892.00,84.59
880.00,85.41
868.00,84.81
856.00,80.75
844.00,74.29
832.00,67.75
820.00,61.62
808.00,57.37
796.00,56.14
784.00,59.79
772.00,69.76
760.00,76.52
748.00,78.28
736.00,79.61
724.00,80.62
712.00,81.37
700.00,81.84
688.00,82.04
676.00,82.08
664.00,81.88
652.00,81.52
640.00,81.07
628.00,80.12
616.00,79.02
604.00,77.78
592.00,76.54
580.00,75.25
568.00,75.01
556.00,73.52
550.00,73.08