Folder: scg-plotting-scripts/TGA

Note: README.md
# scg-plotting-scripts

Plotting scripts + sample data for many of the instruments in the SCG labs.

File: hydromagnesite.txt
Filename:	C:\Users\Bown_304\Desktop\Jordan\TGA\magnesium_carbonate_heavy_1@241118110522.t6d
Operator ID:	Jordan
Sample ID:	magnesium_carbonate_heavy_1
Comment: 	magnesium_carbonate_heavy_1
Serial Number:	537L14021001
Data Collected:	11/18/2024 12:33:22 PM
Sample Weight:	9.761 mg
Display Weight:	9.761
Validation
Validated:	No
By:
Date:
Calibration Information
Filename:	C:\Program Files\PerkinElmer\Pyris\Calibrations\2023-04-05-Mary.tg1c
Date/Time:	4/5/2023 3:36:31 PM
Initial Conditions
Temperature:	 20.00 °C
Baseline Filename:
End Condition:	Go To Load
Total Points in Run:	5280
Method Steps:
Pre-Run Actions
Start the Run
	Action occurs Immediately
Switch the Gas to Nitrogen at 20.0 ml/min
	Action occurs Immediately
1)	Heat from 20.00°C to 900.00°C at 10.00°C/min

1) TGA Temperature Scan
	Time     	Unsubtracted	Baseline     	Program     	Sample     	Approx.     	R25 Diagnostic
	          	Weight     	Weight     	Temperature	Temperature	Gas Flow     	Temperature
	0.000000	9.761101	0.000000	20.004	18.318	0.000000
	0.450000	9.755631	0.000000	24.504	18.217	0.000000
	0.900000	9.750581	0.000000	29.004	18.824	0.000000
	1.350000	9.745692	0.000000	33.504	22.331	0.000000
	1.800000	9.740198	0.000000	38.004	26.787	0.000000
	2.250000	9.734136	0.000000	42.504	31.282	0.000000
	2.700000	9.728444	0.000000	47.004	36.215	0.000000
	3.150000	9.723308	0.000000	51.504	40.764	0.000000
	3.600000	9.717493	0.000000	56.004	45.515	0.000000
	4.050000	9.711332	0.000000	60.504	50.41	0.000000
	4.500000	9.705232	0.000000	65.004	55.116	0.000000
	4.950000	9.699936	0.000000	69.504	60.008	0.000000
	5.400000	9.694997	0.000000	74.004	64.614	0.000000
	5.850000	9.690022	0.000000	78.504	69.482	0.000000
	6.300000	9.685836	0.000000	83.004	74.233	0.000000
	6.750000	9.681725	0.000000	87.504	79.184	0.000000
	7.200000	9.678231	0.000000	92.004	84.107	0.000000
	7.650000	9.674539	0.000000	96.504	88.889	0.000000
	8.100000	9.671341	0.000000	101.004	93.691	0.000000
	8.550000	9.668415	0.000000	105.504	98.51	0.000000
	9.000000	9.665588	0.000000	110.004	103.314	0.000000
	9.450000	9.662909	0.000000	114.504	108.001	0.000000
	9.900000	9.659945	0.000000	119.004	113.014	0.000000
	10.35	9.657353	0.000000	123.504	117.465	0.000000
	10.8	9.654254	0.000000	128.004	121.952	0.000000
	11.25	9.651513	0.000000	132.504	126.325	0.000000
	11.7	9.648389	0.000000	137.004	131.014	0.000000
	12.15	9.645265	0.000000	141.504	135.457	0.000000
	12.6	9.641574	0.000000	146.004	140.123	0.000000
	13.05	9.637561	0.000000	150.504	144.642	0.000000
	13.5	9.633116	0.000000	155.004	149.109	0.000000
	13.95	9.628252	0.000000	159.504	153.719	0.000000
	14.4	9.622856	0.000000	164.004	158.105	0.000000
	14.85	9.617004	0.000000	168.504	162.521	0.000000
	15.3	9.610473	0.000000	173.004	166.926	0.000000
	15.75	9.603460	0.000000	177.504	171.686	0.000000
	16.2	9.595472	0.000000	182.004	176.006	0.000000
	16.65	9.587249	0.000000	186.504	180.529	0.000000
	17.1	9.577964	0.000000	191.004	185.08	0.000000
	17.55	9.567544	0.000000	195.504	189.519	0.000000
	18	9.556025	0.000000	200.004	194.038	0.000000
	18.45	9.544209	0.000000	204.504	198.739	0.000000
	18.9	9.529788	0.000000	209.004	203.207	0.000000
	19.35	9.515022	0.000000	213.504	207.954	0.000000
	19.8	9.498798	0.000000	218.004	212.232	0.000000
	20.25	9.482044	0.000000	222.504	216.714	0.000000
	20.7	9.464537	0.000000	227.004	221.231	0.000000
	21.15	9.446400	0.000000	231.504	225.831	0.000000
	21.6	9.426793	0.000000	236.004	230.27	0.000000
	22.05	9.406002	0.000000	240.504	234.684	0.000000
	22.5	9.383173	0.000000	245.004	239.1	0.000000
	22.95	9.358480	0.000000	249.504	243.532	0.000000
	23.4	9.331095	0.000000	254.004	247.965	0.000000
	23.85	9.300587	0.000000	258.504	252.486	0.000000
	24.3	9.267276	0.000000	263.004	256.867	0.000000
	24.75	9.230508	0.000000	267.504	261.428	0.000000
	25.2	9.190962	0.000000	272.004	266.007	0.000000
	25.65	9.148342	0.000000	276.504	270.576	0.000000
	26.1	9.103968	0.000000	281.004	274.965	0.000000
	26.55	9.057138	0.000000	285.504	279.478	0.000000
	27	9.009764	0.000000	290.004	283.974	0.000000
	27.45	8.962958	0.000000	294.504	288.626	0.000000
	27.9	8.917289	0.000000	299.004	293.251	0.000000
	28.35	8.874100	0.000000	303.504	297.543	0.000000
	28.8	8.833987	0.000000	308.004	302.129	0.000000
	29.25	8.798194	0.000000	312.504	306.569	0.000000
	29.7	8.765932	0.000000	317.004	310.935	0.000000
	30.15	8.736325	0.000000	321.504	315.352	0.000000
	30.6	8.708756	0.000000	326.004	319.773	0.000000
	31.05	8.683038	0.000000	330.504	324.203	0.000000
	31.5	8.657740	0.000000	335.004	328.594	0.000000
	31.95	8.633417	0.000000	339.504	333.08	0.000000
	32.4	8.609403	0.000000	344.004	337.474	0.000000
	32.85	8.586562	0.000000	348.504	341.919	0.000000
	33.3	8.564375	0.000000	353.004	346.368	0.000000
	33.75	8.542374	0.000000	357.504	350.815	0.000000
	34.2	8.521212	0.000000	362.004	355.245	0.000000
	34.65	8.500902	0.000000	366.504	359.803	0.000000
	35.1	8.480814	0.000000	371.004	364.267	0.000000
	35.55	8.460948	0.000000	375.504	368.774	0.000000
	36	8.441317	0.000000	380.004	373.335	0.000000
	36.45	8.421266	0.000000	384.504	377.811	0.000000
	36.9	8.401080	0.000000	389.004	382.128	0.000000
	37.35	8.380671	0.000000	393.504	386.692	0.000000
	37.8	8.359793	0.000000	398.004	391.17	0.000000
	38.25	8.337828	0.000000	402.504	395.698	0.000000
	38.7	8.314456	0.000000	407.004	400.164	0.000000
	39.15	8.291480	0.000000	411.504	404.614	0.000000
	39.6	8.266502	0.000000	416.004	409.068	0.000000
	40.05	8.240291	0.000000	420.504	413.602	0.000000
	40.5	8.212239	0.000000	425.004	418.224	0.000000
	40.95	8.182435	0.000000	429.504	422.666	0.000000
	41.4	8.150247	0.000000	434.004	427.1	0.000000
	41.85	8.115838	0.000000	438.504	431.453	0.000000
	42.3	8.077897	0.000000	443.004	436.012	0.000000
	42.75	8.036968	0.000000	447.504	440.419	0.000000
	43.2	7.991607	0.000000	452.004	444.802	0.000000
	43.65	7.941159	0.000000	456.504	449.254	0.000000
	44.1	7.885822	0.000000	461.004	453.781	0.000000
	44.55	7.824027	0.000000	465.504	458.348	0.000000
	45	7.755862	0.000000	470.004	462.713	0.000000
	45.45	7.680190	0.000000	474.504	467.326	0.000000
	45.9	7.596950	0.000000	479.004	471.701	0.000000
	46.35	7.505684	0.000000	483.504	476.361	0.000000
	46.8	7.408467	0.000000	488.004	480.888	0.000000
	47.25	7.304584	0.000000	492.504	485.434	0.000000
	47.7	7.193922	0.000000	497.004	489.939	0.000000
	48.15	7.076839	0.000000	501.504	494.343	0.000000
	48.6	6.954102	0.000000	506.004	498.894	0.000000
	49.05	6.826809	0.000000	510.504	503.387	0.000000
	49.5	6.696356	0.000000	515.004	507.92	0.000000
	49.95	6.563803	0.000000	519.504	512.414	0.000000
	50.4	6.429671	0.000000	524.004	516.955	0.000000
	50.85	6.295242	0.000000	528.504	521.466	0.000000
	51.3	6.160837	0.000000	533.004	526.146	0.000000
	51.75	6.026877	0.000000	537.504	530.687	0.000000
	52.2	5.895312	0.000000	542.004	535.263	0.000000
	52.65	5.767242	0.000000	546.504	539.814	0.000000
	53.1	5.642764	0.000000	551.004	544.32	0.000000
	53.55	5.522978	0.000000	555.504	548.845	0.000000
	54	5.407785	0.000000	560.004	553.442	0.000000
	54.45	5.298258	0.000000	564.504	557.943	0.000000
	54.9	5.196153	0.000000	569.004	562.51	0.000000
	55.35	5.103492	0.000000	573.504	567.044	0.000000
	55.8	5.021597	0.000000	578.004	571.512	0.000000
	56.25	4.951111	0.000000	582.504	576.058	0.000000
	56.7	4.893897	0.000000	587.004	580.73	0.000000
	57.15	4.848585	0.000000	591.504	585.23	0.000000
	57.6	4.815756	0.000000	596.004	589.889	0.000000
	58.05	4.791223	0.000000	600.504	594.424	0.000000
	58.5	4.771962	0.000000	605.004	599.048	0.000000
	58.95	4.755813	0.000000	609.504	603.518	0.000000
	59.4	4.741787	0.000000	614.004	608.081	0.000000
	59.85	4.728984	0.000000	618.504	612.572	0.000000
	60.3	4.716959	0.000000	623.004	617.118	0.000000
	60.75	4.705501	0.000000	627.504	621.66	0.000000
	61.2	4.694513	0.000000	632.004	626.275	0.000000
	61.65	4.683944	0.000000	636.504	630.899	0.000000
	62.1	4.674042	0.000000	641.004	635.722	0.000000
	62.55	4.664189	0.000000	645.504	640.354	0.000000
	63	4.654300	0.000000	650.004	645.104	0.000000
	63.45	4.644917	0.000000	654.504	649.69	0.000000
	63.9	4.635583	0.000000	659.004	654.215	0.000000
	64.35	4.626434	0.000000	663.504	658.854	0.000000
	64.8	4.617260	0.000000	668.004	663.547	0.000000
	65.25	4.609210	0.000000	672.504	667.924	0.000000
	65.7	4.601123	0.000000	677.004	672.295	0.000000
	66.15	4.593283	0.000000	681.504	676.734	0.000000
	66.6	4.585369	0.000000	686.004	681.151	0.000000
	67.05	4.577467	0.000000	690.504	685.531	0.000000
	67.5	4.568961	0.000000	695.004	689.804	0.000000
	67.95	4.560664	0.000000	699.504	694.289	0.000000
	68.4	4.551391	0.000000	704.004	698.674	0.000000
	68.85	4.542539	0.000000	708.504	703.05	0.000000
	69.3	4.533143	0.000000	713.004	707.428	0.000000
	69.75	4.523106	0.000000	717.504	712.379	0.000000
	70.2	4.513698	0.000000	722.004	717.336	0.000000
	70.65	4.503549	0.000000	726.504	722.282	0.000000
	71.1	4.493202	0.000000	731.004	727.183	0.000000
	71.55	4.483016	0.000000	735.504	732.111	0.000000
	72	4.472670	0.000000	740.004	737.01	0.000000
	72.45	4.462373	0.000000	744.504	741.698	0.000000
	72.9	4.452385	0.000000	749.004	746.555	0.000000
	73.35	4.442446	0.000000	753.504	751.479	0.000000
	73.8	4.432717	0.000000	758.004	756.342	0.000000
	74.25	4.423963	0.000000	762.504	761.293	0.000000
	74.7	4.416036	0.000000	767.004	765.711	0.000000
	75.15	4.409962	0.000000	771.504	770.233	0.000000
	75.6	4.405702	0.000000	776.004	774.995	0.000000
	76.05	4.402998	0.000000	780.504	779.773	0.000000
	76.5	4.400418	0.000000	785.004	784.325	0.000000
	76.95	4.398134	0.000000	789.504	788.983	0.000000
	77.4	4.396245	0.000000	794.004	793.47	0.000000
	77.85	4.394702	0.000000	798.504	798.171	0.000000
	78.3	4.393059	0.000000	803.004	802.93	0.000000
	78.75	4.392072	0.000000	807.504	807.407	0.000000
	79.2	4.390528	0.000000	812.004	812.043	0.000000
	79.65	4.389244	0.000000	816.504	816.795	0.000000
	80.1	4.387726	0.000000	821.004	821.351	0.000000
	80.55	4.386528	0.000000	825.504	826.004	0.000000
	81	4.385577	0.000000	830.004	830.44	0.000000
	81.45	4.384935	0.000000	834.504	834.93	0.000000
	81.9	4.383503	0.000000	839.004	839.395	0.000000
	82.35	4.382651	0.000000	843.504	843.724	0.000000
	82.8	4.381972	0.000000	848.004	848.245	0.000000
	83.25	4.381083	0.000000	852.504	852.834	0.000000
	83.7	4.380392	0.000000	857.004	857.272	0.000000
	84.15	4.379849	0.000000	861.504	861.788	0.000000
	84.6	4.379071	0.000000	866.004	866.047	0.000000
	85.05	4.378528	0.000000	870.504	870.531	0.000000
	85.5	4.377861	0.000000	875.004	875.101	0.000000
	85.95	4.377503	0.000000	879.504	879.579	0.000000
	86.4	4.377145	0.000000	884.004	884.046	0.000000
	86.85	4.376873	0.000000	888.504	888.342	0.000000
	87.3	4.376478	0.000000	893.004	892.937	0.000000
	87.75	4.376046	0.000000	897.504	897.297	0.000000
	87.9833	4.375984	0.000000	899.837	899.738	0.000000

File: silica_fume.txt
Filename:	C:\Users\Bown_304\Desktop\Jordan\TGA\silica_fume@241216130237.t6d
Operator ID:	Jordan
Sample ID:	silica_fume
Comment: 	Silica fume
Serial Number:	537L14021001
Data Collected:	12/16/2024 2:30:38 PM
Sample Weight:	14.705 mg
Display Weight:	14.705
Validation
Validated:	No
By:
Date:
Calibration Information
Filename:	C:\Program Files\PerkinElmer\Pyris\Calibrations\2023-04-05-Mary.tg1c
Date/Time:	4/5/2023 3:36:31 PM
Initial Conditions
Temperature:	 20.00 °C
Baseline Filename:
End Condition:	Go To Load
Total Points in Run:	5280
Method Steps:
Pre-Run Actions
Start the Run
	Action occurs Immediately
Switch the Gas to Nitrogen at 20.0 ml/min
	Action occurs Immediately
1)	Heat from 20.00°C to 900.00°C at 10.00°C/min

1) TGA Temperature Scan
	Time     	Unsubtracted	Baseline     	Program     	Sample     	Approx.     	R25 Diagnostic
	          	Weight     	Weight     	Temperature	Temperature	Gas Flow     	Temperature
	0.000000	14.7043	0.000000	20.004	19.054	0.000000
	0.450000	14.7024	0.000000	24.504	19.211	0.000000
	0.900000	14.7018	0.000000	29.004	19.252	0.000000
	1.350000	14.7019	0.000000	33.504	22.497	0.000000
	1.800000	14.7028	0.000000	38.004	26.909	0.000000
	2.250000	14.7021	0.000000	42.504	31.549	0.000000
	2.700000	14.7013	0.000000	47.004	36.003	0.000000
	3.150000	14.7011	0.000000	51.504	40.776	0.000000
	3.600000	14.7005	0.000000	56.004	45.429	0.000000
	4.050000	14.7001	0.000000	60.504	50.332	0.000000
	4.500000	14.6993	0.000000	65.004	55.209	0.000000
	4.950000	14.6986	0.000000	69.504	59.913	0.000000
	5.400000	14.6981	0.000000	74.004	64.635	0.000000
	5.850000	14.6976	0.000000	78.504	69.53	0.000000
	6.300000	14.6971	0.000000	83.004	74.353	0.000000
	6.750000	14.6969	0.000000	87.504	79.071	0.000000
	7.200000	14.6966	0.000000	92.004	84.038	0.000000
	7.650000	14.6966	0.000000	96.504	88.905	0.000000
	8.100000	14.6962	0.000000	101.004	93.828	0.000000
	8.550000	14.6961	0.000000	105.504	98.797	0.000000
	9.000000	14.6961	0.000000	110.004	103.597	0.000000
	9.450000	14.6956	0.000000	114.504	108.296	0.000000
	9.900000	14.6955	0.000000	119.004	112.959	0.000000
	10.35	14.695	0.000000	123.504	117.456	0.000000
	10.8	14.6943	0.000000	128.004	121.786	0.000000
	11.25	14.6936	0.000000	132.504	126.331	0.000000
	11.7	14.6928	0.000000	137.004	130.919	0.000000
	12.15	14.692	0.000000	141.504	135.25	0.000000
	12.6	14.6915	0.000000	146.004	139.816	0.000000
	13.05	14.6906	0.000000	150.504	144.342	0.000000
	13.5	14.6901	0.000000	155.004	148.91	0.000000
	13.95	14.689	0.000000	159.504	153.547	0.000000
	14.4	14.6882	0.000000	164.004	157.928	0.000000
	14.85	14.6873	0.000000	168.504	162.411	0.000000
	15.3	14.6858	0.000000	173.004	166.686	0.000000
	15.75	14.6848	0.000000	177.504	171.142	0.000000
	16.2	14.6835	0.000000	182.004	175.798	0.000000
	16.65	14.6826	0.000000	186.504	180.233	0.000000
	17.1	14.6816	0.000000	191.004	184.755	0.000000
	17.55	14.6803	0.000000	195.504	189.244	0.000000
	18	14.6789	0.000000	200.004	193.724	0.000000
	18.45	14.6777	0.000000	204.504	198.242	0.000000
	18.9	14.6767	0.000000	209.004	202.83	0.000000
	19.35	14.6758	0.000000	213.504	207.515	0.000000
	19.8	14.6745	0.000000	218.004	212.034	0.000000
	20.25	14.6735	0.000000	222.504	216.377	0.000000
	20.7	14.6727	0.000000	227.004	220.808	0.000000
	21.15	14.6715	0.000000	231.504	225.276	0.000000
	21.6	14.6704	0.000000	236.004	229.865	0.000000
	22.05	14.669	0.000000	240.504	234.288	0.000000
	22.5	14.6681	0.000000	245.004	238.673	0.000000
	22.95	14.667	0.000000	249.504	243.085	0.000000
	23.4	14.6661	0.000000	254.004	247.503	0.000000
	23.85	14.6648	0.000000	258.504	252.051	0.000000
	24.3	14.6635	0.000000	263.004	256.572	0.000000
	24.75	14.6626	0.000000	267.504	261.047	0.000000
	25.2	14.6618	0.000000	272.004	265.596	0.000000
	25.65	14.661	0.000000	276.504	270.01	0.000000
	26.1	14.6602	0.000000	281.004	274.556	0.000000
	26.55	14.6589	0.000000	285.504	279.166	0.000000
	27	14.6581	0.000000	290.004	283.615	0.000000
	27.45	14.6576	0.000000	294.504	287.963	0.000000
	27.9	14.6563	0.000000	299.004	292.533	0.000000
	28.35	14.6558	0.000000	303.504	296.961	0.000000
	28.8	14.6547	0.000000	308.004	301.666	0.000000
	29.25	14.6541	0.000000	312.504	306.11	0.000000
	29.7	14.6532	0.000000	317.004	310.389	0.000000
	30.15	14.6522	0.000000	321.504	314.685	0.000000
	30.6	14.6516	0.000000	326.004	319.116	0.000000
	31.05	14.6506	0.000000	330.504	323.675	0.000000
	31.5	14.6495	0.000000	335.004	328.118	0.000000
	31.95	14.6487	0.000000	339.504	332.524	0.000000
	32.4	14.6485	0.000000	344.004	337.066	0.000000
	32.85	14.6473	0.000000	348.504	341.564	0.000000
	33.3	14.6465	0.000000	353.004	345.785	0.000000
	33.75	14.6461	0.000000	357.504	350.214	0.000000
	34.2	14.6454	0.000000	362.004	354.703	0.000000
	34.65	14.6443	0.000000	366.504	359.219	0.000000
	35.1	14.6438	0.000000	371.004	363.871	0.000000
	35.55	14.6429	0.000000	375.504	368.236	0.000000
	36	14.642	0.000000	380.004	372.759	0.000000
	36.45	14.6415	0.000000	384.504	377.231	0.000000
	36.9	14.641	0.000000	389.004	381.662	0.000000
	37.35	14.6404	0.000000	393.504	386.189	0.000000
	37.8	14.6395	0.000000	398.004	390.617	0.000000
	38.25	14.6392	0.000000	402.504	395.069	0.000000
	38.7	14.6382	0.000000	407.004	399.426	0.000000
	39.15	14.6377	0.000000	411.504	403.873	0.000000
	39.6	14.6369	0.000000	416.004	408.378	0.000000
	40.05	14.6361	0.000000	420.504	412.97	0.000000
	40.5	14.6356	0.000000	425.004	417.514	0.000000
	40.95	14.6348	0.000000	429.504	421.91	0.000000
	41.4	14.6342	0.000000	434.004	426.428	0.000000
	41.85	14.6336	0.000000	438.504	430.792	0.000000
	42.3	14.6331	0.000000	443.004	435.238	0.000000
	42.75	14.6322	0.000000	447.504	439.738	0.000000
	43.2	14.6314	0.000000	452.004	444.189	0.000000
	43.65	14.6309	0.000000	456.504	448.62	0.000000
	44.1	14.6301	0.000000	461.004	453.182	0.000000
	44.55	14.6293	0.000000	465.504	457.513	0.000000
	45	14.6283	0.000000	470.004	462.027	0.000000
	45.45	14.6272	0.000000	474.504	466.565	0.000000
	45.9	14.6265	0.000000	479.004	470.919	0.000000
	46.35	14.6255	0.000000	483.504	475.392	0.000000
	46.8	14.6245	0.000000	488.004	479.995	0.000000
	47.25	14.6234	0.000000	492.504	484.504	0.000000
	47.7	14.6223	0.000000	497.004	489.008	0.000000
	48.15	14.6212	0.000000	501.504	493.483	0.000000
	48.6	14.6202	0.000000	506.004	497.877	0.000000
	49.05	14.6188	0.000000	510.504	502.45	0.000000
	49.5	14.6177	0.000000	515.004	507.055	0.000000
	49.95	14.6162	0.000000	519.504	511.477	0.000000
	50.4	14.615	0.000000	524.004	515.938	0.000000
	50.85	14.6138	0.000000	528.504	520.513	0.000000
	51.3	14.6124	0.000000	533.004	525.127	0.000000
	51.75	14.611	0.000000	537.504	529.832	0.000000
	52.2	14.6092	0.000000	542.004	534.318	0.000000
	52.65	14.6083	0.000000	546.504	538.829	0.000000
	53.1	14.6067	0.000000	551.004	543.374	0.000000
	53.55	14.6056	0.000000	555.504	547.929	0.000000
	54	14.6041	0.000000	560.004	552.338	0.000000
	54.45	14.6025	0.000000	564.504	556.826	0.000000
	54.9	14.601	0.000000	569.004	561.328	0.000000
	55.35	14.5994	0.000000	573.504	566.051	0.000000
	55.8	14.5975	0.000000	578.004	570.556	0.000000
	56.25	14.5953	0.000000	582.504	575.131	0.000000
	56.7	14.5929	0.000000	587.004	579.706	0.000000
	57.15	14.5903	0.000000	591.504	584.223	0.000000
	57.6	14.5871	0.000000	596.004	588.767	0.000000
	58.05	14.5835	0.000000	600.504	593.464	0.000000
	58.5	14.5792	0.000000	605.004	597.913	0.000000
	58.95	14.5754	0.000000	609.504	602.41	0.000000
	59.4	14.5703	0.000000	614.004	606.925	0.000000
	59.85	14.5648	0.000000	618.504	611.451	0.000000
	60.3	14.5595	0.000000	623.004	616.009	0.000000
	60.75	14.5541	0.000000	627.504	620.503	0.000000
	61.2	14.5485	0.000000	632.004	625.261	0.000000
	61.65	14.5437	0.000000	636.504	629.992	0.000000
	62.1	14.5398	0.000000	641.004	634.742	0.000000
	62.55	14.5368	0.000000	645.504	639.409	0.000000
	63	14.5346	0.000000	650.004	643.847	0.000000
	63.45	14.5335	0.000000	654.504	648.413	0.000000
	63.9	14.5324	0.000000	659.004	653.195	0.000000
	64.35	14.5319	0.000000	663.504	657.794	0.000000
	64.8	14.5315	0.000000	668.004	662.562	0.000000
	65.25	14.5307	0.000000	672.504	667.039	0.000000
	65.7	14.5297	0.000000	677.004	671.281	0.000000
	66.15	14.5293	0.000000	681.504	675.648	0.000000
	66.6	14.5288	0.000000	686.004	680.016	0.000000
	67.05	14.528	0.000000	690.504	684.411	0.000000
	67.5	14.5277	0.000000	695.004	688.688	0.000000
	67.95	14.5272	0.000000	699.504	693.143	0.000000
	68.4	14.5267	0.000000	704.004	697.494	0.000000
	68.85	14.526	0.000000	708.504	702.023	0.000000
	69.3	14.5249	0.000000	713.004	706.357	0.000000
	69.75	14.5244	0.000000	717.504	710.958	0.000000
	70.2	14.5243	0.000000	722.004	715.977	0.000000
	70.65	14.5238	0.000000	726.504	720.936	0.000000
	71.1	14.5233	0.000000	731.004	725.731	0.000000
	71.55	14.5229	0.000000	735.504	730.734	0.000000
	72	14.5225	0.000000	740.004	735.492	0.000000
	72.45	14.522	0.000000	744.504	740.512	0.000000
	72.9	14.5213	0.000000	749.004	745.493	0.000000
	73.35	14.521	0.000000	753.504	750.358	0.000000
	73.8	14.5209	0.000000	758.004	755.103	0.000000
	74.25	14.5202	0.000000	762.504	759.906	0.000000
	74.7	14.5198	0.000000	767.004	764.541	0.000000
	75.15	14.5193	0.000000	771.504	769.064	0.000000
	75.6	14.5188	0.000000	776.004	773.569	0.000000
	76.05	14.518	0.000000	780.504	778.324	0.000000
	76.5	14.5178	0.000000	785.004	782.972	0.000000
	76.95	14.5174	0.000000	789.504	787.637	0.000000
	77.4	14.5168	0.000000	794.004	792.192	0.000000
	77.85	14.5164	0.000000	798.504	796.684	0.000000
	78.3	14.5155	0.000000	803.004	801.25	0.000000
	78.75	14.515	0.000000	807.504	805.898	0.000000
	79.2	14.5144	0.000000	812.004	810.596	0.000000
	79.65	14.5138	0.000000	816.504	815.048	0.000000
	80.1	14.5134	0.000000	821.004	819.822	0.000000
	80.55	14.5124	0.000000	825.504	824.337	0.000000
	81	14.5119	0.000000	830.004	828.995	0.000000
	81.45	14.5109	0.000000	834.504	833.547	0.000000
	81.9	14.5101	0.000000	839.004	837.907	0.000000
	82.35	14.5094	0.000000	843.504	842.212	0.000000
	82.8	14.5084	0.000000	848.004	846.815	0.000000
	83.25	14.5079	0.000000	852.504	851.198	0.000000
	83.7	14.5072	0.000000	857.004	855.538	0.000000
	84.15	14.5062	0.000000	861.504	859.899	0.000000
	84.6	14.5055	0.000000	866.004	864.277	0.000000
	85.05	14.5047	0.000000	870.504	868.814	0.000000
	85.5	14.5042	0.000000	875.004	873.209	0.000000
	85.95	14.5037	0.000000	879.504	877.657	0.000000
	86.4	14.5025	0.000000	884.004	882.152	0.000000
	86.85	14.502	0.000000	888.504	886.488	0.000000
	87.3	14.5012	0.000000	893.004	890.965	0.000000
	87.75	14.5005	0.000000	897.504	895.528	0.000000
	87.9833	14.5005	0.000000	899.837	897.922	0.000000