Folder: scg-plotting-scripts/XRD

Note: README.md
# scg-plotting-scripts

Plotting scripts + sample data for many of the instruments in the SCG labs.

File: hydromagnesite.xy
'Id: "" Comment: "" Operator: "Lab Manager" Anode: "Cu" Scantype: "Coupled TwoTheta/Theta" TimePerStep: "192"
5.0000 6.823
5.2212 6.115
5.4424 5.948
5.6636 5.474
5.8848 5.359
6.1060 5.083
6.3271 5.036
6.5483 4.880
6.7695 4.469
6.9907 4.245
7.2119 3.698
7.4331 3.661
7.6543 3.719
7.8755 3.177
8.0967 3.188
8.3179 2.786
8.5391 3.042
8.7602 2.807
8.9814 2.719
9.2026 3.547
9.4238 8.526
9.6450 10.786
9.8662 2.745
10.0874 2.057
10.3086 1.813
10.5298 1.672
10.7510 1.594
10.9721 1.667
11.1933 1.552
11.4145 1.500
11.6357 1.266
11.8569 1.589
12.0781 1.281
12.2993 1.245
12.5205 1.188
12.7417 1.302
12.9629 1.198
13.1841 1.401
13.4052 1.750
13.6264 3.526
13.8476 5.453
14.0688 1.849
14.2900 1.469
14.5112 1.391
14.7324 1.510
14.9536 2.479
15.1748 12.568
15.3960 4.490
15.6172 1.469
15.8383 1.344
16.0595 1.000
16.2807 1.000
16.5019 0.958
16.7231 1.057
16.9443 0.870
17.1655 0.964
17.3867 0.818
17.6079 0.859
17.8291 0.776
18.0503 0.813
18.2714 0.901
18.4926 0.807
18.7138 0.870
18.9350 0.969
19.1562 1.281
19.3774 1.359
19.5986 1.125
19.8198 2.568
20.0410 0.990
20.2622 0.724
20.4834 0.802
20.7045 0.802
20.9257 1.240
21.1469 4.698
21.3681 1.193
21.5893 1.630
21.8105 1.646
22.0317 1.625
22.2529 1.042
22.4741 0.802
22.6953 0.682
22.9164 0.729
23.1376 1.120
23.3588 1.688
23.5800 0.698
23.8012 0.656
24.0224 0.734
24.2436 0.698
24.4648 0.625
24.6860 0.604
24.9072 0.667
25.1284 0.786
25.3495 1.880
25.5707 1.063
25.7919 0.708
26.0131 0.682
26.2343 1.094
26.4555 0.766
26.6767 1.688
26.8979 3.297
27.1191 1.344
27.3403 0.979
27.5615 1.266
27.7826 2.786
28.0038 1.651
28.2250 3.313
28.4462 1.969
28.6674 1.964
28.8886 2.245
29.1098 1.609
29.3310 1.177
29.5522 1.005
29.7734 0.844
29.9946 1.047
30.2157 1.099
30.4369 2.219
30.6581 6.833
30.8793 8.224
31.1005 1.854
31.3217 1.411
31.5429 1.276
31.7641 0.849
31.9853 0.828
32.2065 1.172
32.4277 1.177
32.6488 2.224
32.8700 1.099
33.0912 2.328
33.3124 3.542
33.5336 1.172
33.7548 0.844
33.9760 0.984
34.1972 0.651
34.4184 0.635
34.6396 0.651
34.8607 0.839
35.0819 1.219
35.3031 1.313
35.5243 1.536
35.7455 2.500
35.9667 2.354
36.1879 2.240
36.4091 1.849
36.6303 0.979
36.8515 0.922
37.0727 0.917
37.2938 1.234
37.5150 0.635
37.7362 0.938
37.9574 0.792
38.1786 1.266
38.3998 1.401
38.6210 0.875
38.8422 1.401
39.0634 3.250
39.2846 2.667
39.5058 1.036
39.7269 0.771
39.9481 0.625
40.1693 0.891
40.3905 1.000
40.6117 1.297
40.8329 3.109
41.0541 1.833
41.2753 2.302
41.4965 2.135
41.7177 3.563
41.9389 4.016
42.1600 2.807
42.3812 1.505
42.6024 0.854
42.8236 0.875
43.0448 0.932
43.2660 0.615
43.4872 0.479
43.7084 0.448
43.9296 0.557
44.1508 0.599
44.3720 0.922
44.5931 1.026
44.8143 1.078
45.0355 1.068
45.2567 1.417
45.4779 3.240
45.6991 1.708
45.9203 1.510
46.1415 1.214
46.3627 0.901
46.5839 0.677
46.8050 1.297
47.0262 1.469
47.2474 0.979
47.4686 0.911
47.6898 0.906
47.9110 0.885
48.1322 0.625
48.3534 0.740
48.5746 0.755
48.7958 0.964
49.0170 1.292
49.2381 0.948
49.4593 1.214
49.6805 1.214
49.9017 1.073
50.1229 1.526
50.3441 1.016
50.5653 0.604
50.7865 0.542
51.0077 0.396
51.2289 0.469
51.4501 0.490
51.6712 0.557
51.8924 0.979
52.1136 0.953
52.3348 0.938
52.5560 1.385
52.7772 0.984
52.9984 0.724
53.2196 0.370
53.4408 0.370
53.6620 0.443
53.8832 0.557
54.1043 0.432
54.3255 0.578
54.5467 0.641
54.7679 0.792
54.9891 0.781
55.2103 0.818
55.4315 0.724
55.6527 0.682
55.8739 0.813
56.0951 0.922
56.3163 0.964
56.5374 1.542
56.7586 2.729
56.9798 2.245
57.2010 1.406
57.4222 0.839
57.6434 0.531
57.8646 0.563
58.0858 0.604
58.3070 1.005
58.5282 1.422
58.7493 1.151
58.9705 1.635
59.1917 1.182
59.4129 0.672
59.6341 0.615
59.8553 0.557
60.0765 0.797
60.2977 0.745
60.5189 0.964
60.7401 0.703
60.9613 0.609
61.1824 0.427
61.4036 0.599
61.6248 0.771
61.8460 0.839
62.0672 0.568
62.2884 0.578
62.5096 0.552
62.7308 0.505
62.9520 0.531
63.1732 0.656
63.3944 0.714
63.6155 0.802
63.8367 0.755
64.0579 0.854
64.2791 0.885
64.5003 0.958
64.7215 0.708
64.9427 0.604
65.1639 0.458
65.3851 0.688
65.6063 0.948
65.8275 0.911
66.0486 0.729
66.2698 0.776
66.4910 0.740
66.7122 0.760
66.9334 0.885
67.1546 0.755
67.3758 0.573
67.5970 0.453
67.8182 0.510
68.0394 0.563
68.2606 0.495
68.4817 0.563
68.7029 0.510
68.9241 0.547
69.1453 0.438
69.3665 0.406
69.5877 0.370
69.8089 0.432
70.0108 0.510

File: magnesium_oxide.xy
'Id: "" Comment: "" Operator: "Lab Manager" Anode: "Cu" Scantype: "Coupled TwoTheta/Theta" TimePerStep: "192"
5.0000 7.891
5.2212 6.974
5.4424 6.026
5.6636 5.969
5.8848 5.839
6.1060 5.313
6.3271 5.328
6.5483 4.776
6.7695 4.510
6.9907 4.474
7.2119 3.927
7.4331 3.948
7.6543 3.630
7.8755 3.526
8.0967 3.146
8.3179 2.865
8.5391 2.594
8.7602 2.984
8.9814 2.438
9.2026 2.188
9.4238 2.943
9.6450 2.021
9.8662 1.677
10.0874 1.771
10.3086 1.620
10.5298 1.578
10.7510 1.443
10.9721 1.563
11.1933 1.516
11.4145 1.526
11.6357 1.411
11.8569 1.297
12.0781 1.328
12.2993 1.375
12.5205 1.344
12.7417 1.130
12.9629 1.125
13.1841 1.099
13.4052 1.219
13.6264 1.141
13.8476 1.203
14.0688 1.109
14.2900 1.078
14.5112 0.979
14.7324 0.906
14.9536 1.026
15.1748 0.932
15.3960 0.865
15.6172 0.917
15.8383 0.865
16.0595 0.880
16.2807 0.807
16.5019 0.833
16.7231 0.734
16.9443 0.849
17.1655 0.875
17.3867 0.797
17.6079 0.792
17.8291 0.828
18.0503 0.609
18.2714 0.813
18.4926 0.917
18.7138 0.630
18.9350 0.766
19.1562 0.589
19.3774 0.698
19.5986 0.693
19.8198 0.583
20.0410 0.630
20.2622 0.703
20.4834 0.536
20.7045 0.646
20.9257 0.615
21.1469 0.615
21.3681 0.646
21.5893 0.656
21.8105 0.495
22.0317 0.589
22.2529 0.646
22.4741 0.583
22.6953 0.578
22.9164 0.516
23.1376 0.568
23.3588 0.589
23.5800 0.563
23.8012 0.589
24.0224 0.531
24.2436 0.500
24.4648 0.500
24.6860 0.490
24.9072 0.531
25.1284 0.464
25.3495 0.526
25.5707 0.521
25.7919 0.505
26.0131 0.375
26.2343 0.536
26.4555 0.516
26.6767 0.667
26.8979 0.401
27.1191 0.510
27.3403 0.448
27.5615 0.438
27.7826 0.443
28.0038 0.547
28.2250 0.542
28.4462 0.469
28.6674 0.823
28.8886 0.469
29.1098 0.490
29.3310 1.089
29.5522 0.776
29.7734 0.490
29.9946 0.510
30.2157 0.432
30.4369 0.448
30.6581 0.359
30.8793 0.469
31.1005 0.557
31.3217 0.422
31.5429 0.427
31.7641 0.411
31.9853 0.484
32.2065 0.766
32.4277 0.443
32.6488 0.396
32.8700 0.380
33.0912 0.484
33.3124 0.458
33.5336 0.422
33.7548 0.422
33.9760 0.380
34.1972 0.385
34.4184 0.432
34.6396 0.479
34.8607 0.490
35.0819 0.526
35.3031 0.443
35.5243 0.422
35.7455 0.536
35.9667 0.740
36.1879 0.714
36.4091 0.828
36.6303 1.094
36.8515 1.635
37.0727 1.599
37.2938 1.411
37.5150 0.964
37.7362 0.542
37.9574 0.385
38.1786 0.401
38.3998 0.396
38.6210 0.391
38.8422 0.365
39.0634 0.417
39.2846 0.536
39.5058 0.583
39.7269 0.495
39.9481 0.396
40.1693 0.370
40.3905 0.469
40.6117 0.411
40.8329 0.479
41.0541 0.609
41.2753 0.672
41.4965 0.750
41.7177 1.135
41.9389 1.234
42.1600 1.984
42.3812 4.385
42.6024 9.547
42.8236 16.318
43.0448 13.620
43.2660 6.333
43.4872 2.839
43.7084 1.495
43.9296 1.005
44.1508 0.776
44.3720 0.708
44.5931 0.583
44.8143 0.557
45.0355 0.458
45.2567 0.458
45.4779 0.464
45.6991 0.453
45.9203 0.417
46.1415 0.391
46.3627 0.370
46.5839 0.365
46.8050 0.380
47.0262 0.375
47.2474 0.427
47.4686 0.484
47.6898 0.406
47.9110 0.297
48.1322 0.302
48.3534 0.438
48.5746 0.427
48.7958 0.307
49.0170 0.302
49.2381 0.234
49.4593 0.339
49.6805 0.339
49.9017 0.339
50.1229 0.286
50.3441 0.266
50.5653 0.255
50.7865 0.271
51.0077 0.313
51.2289 0.224
51.4501 0.260
51.6712 0.281
51.8924 0.234
52.1136 0.224
52.3348 0.318
52.5560 0.234
52.7772 0.229
52.9984 0.245
53.2196 0.297
53.4408 0.281
53.6620 0.396
53.8832 0.469
54.1043 0.385
54.3255 0.240
54.5467 0.271
54.7679 0.260
54.9891 0.245
55.2103 0.250
55.4315 0.245
55.6527 0.271
55.8739 0.260
56.0951 0.266
56.3163 0.229
56.5374 0.302
56.7586 0.271
56.9798 0.208
57.2010 0.302
57.4222 0.318
57.6434 0.177
57.8646 0.229
58.0858 0.250
58.3070 0.245
58.5282 0.307
58.7493 0.271
58.9705 0.266
59.1917 0.307
59.4129 0.240
59.6341 0.260
59.8553 0.406
60.0765 0.401
60.2977 0.349
60.5189 0.438
60.7401 0.526
60.9613 0.583
61.1824 0.688
61.4036 0.995
61.6248 1.583
61.8460 3.510
62.0672 6.484
62.2884 8.047
62.5096 5.589
62.7308 2.661
62.9520 1.432
63.1732 0.740
63.3944 0.635
63.6155 0.568
63.8367 0.422
64.0579 0.458
64.2791 0.427
64.5003 0.354
64.7215 0.344
64.9427 0.245
65.1639 0.245
65.3851 0.354
65.6063 0.328
65.8275 0.323
66.0486 0.328
66.2698 0.271
66.4910 0.328
66.7122 0.234
66.9334 0.224
67.1546 0.297
67.3758 0.339
67.5970 0.260
67.8182 0.302
68.0394 0.255
68.2606 0.307
68.4817 0.219
68.7029 0.229
68.9241 0.214
69.1453 0.203
69.3665 0.240
69.5877 0.224
69.8089 0.286
70.0108 0.208

File: silica_fume.xy
'Id: "" Comment: "" Operator: "Lab Manager" Anode: "Cu" Scantype: "Coupled TwoTheta/Theta" TimePerStep: "192"
5.0000 6.615
5.2212 6.026
5.4424 5.922
5.6636 5.719
5.8848 5.214
6.1060 4.828
6.3271 4.948
6.5483 4.380
6.7695 4.453
6.9907 4.036
7.2119 4.073
7.4331 3.813
7.6543 3.385
7.8755 3.568
8.0967 3.240
8.3179 2.927
8.5391 2.984
8.7602 2.750
8.9814 2.448
9.2026 2.318
9.4238 2.208
9.6450 2.302
9.8662 2.010
10.0874 1.734
10.3086 1.792
10.5298 1.911
10.7510 2.073
10.9721 1.938
11.1933 1.672
11.4145 1.745
11.6357 1.724
11.8569 1.708
12.0781 1.880
12.2993 1.771
12.5205 1.828
12.7417 1.734
12.9629 1.672
13.1841 1.693
13.4052 1.688
13.6264 1.552
13.8476 1.682
14.0688 1.708
14.2900 1.792
14.5112 1.536
14.7324 1.734
14.9536 1.630
15.1748 1.849
15.3960 1.786
15.6172 1.729
15.8383 1.766
16.0595 1.896
16.2807 1.708
16.5019 1.786
16.7231 1.875
16.9443 2.099
17.1655 1.839
17.3867 2.234
17.6079 1.979
17.8291 2.240
18.0503 2.286
18.2714 2.177
18.4926 2.286
18.7138 2.417
18.9350 2.271
19.1562 2.604
19.3774 2.604
19.5986 2.635
19.8198 2.542
20.0410 2.818
20.2622 2.714
20.4834 2.953
20.7045 2.813
20.9257 2.906
21.1469 3.026
21.3681 2.979
21.5893 3.026
21.8105 3.000
22.0317 3.120
22.2529 2.698
22.4741 2.859
22.6953 2.703
22.9164 2.646
23.1376 2.734
23.3588 2.339
23.5800 2.536
23.8012 2.250
24.0224 2.500
24.2436 2.224
24.4648 2.083
24.6860 2.130
24.9072 2.125
25.1284 1.865
25.3495 2.021
25.5707 1.792
25.7919 1.641
26.0131 1.854
26.2343 1.734
26.4555 1.677
26.6767 1.677
26.8979 1.630
27.1191 1.500
27.3403 1.380
27.5615 1.380
27.7826 1.271
28.0038 1.479
28.2250 1.458
28.4462 1.432
28.6674 1.224
28.8886 1.229
29.1098 1.167
29.3310 1.276
29.5522 1.245
29.7734 1.198
29.9946 1.141
30.2157 1.109
30.4369 1.156
30.6581 1.120
30.8793 1.151
31.1005 1.057
31.3217 1.000
31.5429 0.906
31.7641 0.990
31.9853 1.000
32.2065 1.104
32.4277 1.036
32.6488 0.901
32.8700 0.927
33.0912 0.823
33.3124 0.927
33.5336 0.932
33.7548 0.974
33.9760 0.859
34.1972 0.906
34.4184 0.792
34.6396 0.729
34.8607 0.849
35.0819 0.839
35.3031 0.828
35.5243 0.766
35.7455 1.401
35.9667 0.839
36.1879 0.594
36.4091 0.766
36.6303 0.776
36.8515 0.703
37.0727 0.719
37.2938 0.677
37.5150 0.589
37.7362 0.714
37.9574 0.677
38.1786 0.589
38.3998 0.615
38.6210 0.552
38.8422 0.578
39.0634 0.615
39.2846 0.698
39.5058 0.464
39.7269 0.646
39.9481 0.589
40.1693 0.516
40.3905 0.625
40.6117 0.563
40.8329 0.531
41.0541 0.698
41.2753 0.667
41.4965 0.646
41.7177 0.620
41.9389 0.667
42.1600 0.542
42.3812 0.599
42.6024 0.521
42.8236 0.563
43.0448 0.490
43.2660 0.568
43.4872 0.526
43.7084 0.563
43.9296 0.625
44.1508 0.552
44.3720 0.521
44.5931 0.578
44.8143 0.563
45.0355 0.589
45.2567 0.578
45.4779 0.547
45.6991 0.547
45.9203 0.542
46.1415 0.589
46.3627 0.604
46.5839 0.526
46.8050 0.563
47.0262 0.500
47.2474 0.563
47.4686 0.557
47.6898 0.542
47.9110 0.432
48.1322 0.438
48.3534 0.557
48.5746 0.495
48.7958 0.495
49.0170 0.490
49.2381 0.542
49.4593 0.469
49.6805 0.458
49.9017 0.563
50.1229 0.599
50.3441 0.438
50.5653 0.484
50.7865 0.583
51.0077 0.479
51.2289 0.526
51.4501 0.490
51.6712 0.344
51.8924 0.490
52.1136 0.427
52.3348 0.464
52.5560 0.484
52.7772 0.589
52.9984 0.599
53.2196 0.552
53.4408 0.359
53.6620 0.427
53.8832 0.474
54.1043 0.526
54.3255 0.490
54.5467 0.490
54.7679 0.490
54.9891 0.495
55.2103 0.484
55.4315 0.500
55.6527 0.385
55.8739 0.438
56.0951 0.490
56.3163 0.469
56.5374 0.354
56.7586 0.510
56.9798 0.396
57.2010 0.406
57.4222 0.427
57.6434 0.469
57.8646 0.490
58.0858 0.521
58.3070 0.563
58.5282 0.406
58.7493 0.505
58.9705 0.432
59.1917 0.443
59.4129 0.464
59.6341 0.526
59.8553 0.646
60.0765 0.698
60.2977 0.526
60.5189 0.458
60.7401 0.526
60.9613 0.521
61.1824 0.406
61.4036 0.500
61.6248 0.422
61.8460 0.411
62.0672 0.510
62.2884 0.547
62.5096 0.432
62.7308 0.495
62.9520 0.474
63.1732 0.453
63.3944 0.479
63.6155 0.521
63.8367 0.526
64.0579 0.635
64.2791 0.484
64.5003 0.438
64.7215 0.495
64.9427 0.557
65.1639 0.422
65.3851 0.469
65.6063 0.443
65.8275 0.526
66.0486 0.474
66.2698 0.339
66.4910 0.427
66.7122 0.406
66.9334 0.422
67.1546 0.448
67.3758 0.422
67.5970 0.464
67.8182 0.448
68.0394 0.474
68.2606 0.464
68.4817 0.422
68.7029 0.422
68.9241 0.448
69.1453 0.401
69.3665 0.479
69.5877 0.396
69.8089 0.510
70.0108 0.448